accX,accY,accZ,gyroX,gyroY,gyroZ
0.1748046875,-0.974365234375,0.09033203125,-7.763358778625954,-39.732824427480914,-2.122137404580153
0.162109375,-0.98583984375,0.0947265625,-3.480916030534351,-39.38931297709924,0.6030534351145038
0.162841796875,-0.973876953125,0.074951171875,-4.00763358778626,-39.05343511450382,-0.648854961832061
0.18115234375,-0.9755859375,0.074462890625,-2.1908396946564888,-39.63358778625954,-4.244274809160306
0.17822265625,-0.97216796875,0.040283203125,-3.0763358778625953,-39.32824427480916,-2.2442748091603053
0.168701171875,-0.9599609375,0.04296875,-6.862595419847328,-39.31297709923664,-0.9541984732824428
0.200927734375,-0.974609375,0.069091796875,-6.015267175572519,-40.229007633587784,-2.6717557251908395
0.198486328125,-0.947021484375,0.036865234375,-8.34351145038168,-39.19083969465649,-2.7938931297709924
0.167724609375,-0.98193359375,0.087646484375,-5.213740458015267,-39.93129770992366,-3.954198473282443
0.189208984375,-0.966796875,0.05419921875,-6.572519083969466,-40.30534351145038,-2.2061068702290076
0.172607421875,-0.9912109375,0.104248046875,-3.8396946564885495,-39.954198473282446,-3.114503816793893
0.1845703125,-0.96435546875,0.05224609375,-7.66412213740458,-39.14503816793893,1.4198473282442747
0.142333984375,-0.99951171875,0.03515625,-5.251908396946565,-39.97709923664122,0.6183206106870229
-0.13818359375,-1.1044921875,-0.122314453125,-20.641221374045802,-40.89312977099237,16.65648854961832
-0.4560546875,-1.2236328125,-0.120849609375,-20.893129770992367,-43.6793893129771,49.57251908396947
-0.565673828125,-1.22119140625,-0.428955078125,-40.343511450381676,-48.656488549618324,91.93893129770993
-0.93701171875,-1.5400390625,-0.4033203125,-63.41984732824427,-49.25954198473283,160.65648854961833
-0.514892578125,-1.6337890625,-0.596923828125,-99.17557251908397,-47.38167938931298,209.66412213740458
-0.770751953125,-1.889404296875,-0.55322265625,-139.21374045801528,-47.18320610687023,248.70992366412213
-0.680419921875,-1.739990234375,-0.8134765625,-197.33587786259542,-37.47328244274809,250.06106870229007
-0.53857421875,-1.533203125,-0.779052734375,-229.32824427480915,-44.82442748091603,250.06106870229007
-0.5380859375,-1.30810546875,-0.306396484375,250.1145038167939,-40.06106870229008,239.793893129771
-0.568359375,-0.98876953125,-0.389892578125,-192.63358778625954,-45.66412213740458,204.68702290076337
-0.996337890625,-1.108154296875,-0.094970703125,-140.12213740458014,-48.2442748091603,204.70229007633588
-0.630126953125,-0.78125,-0.261474609375,-99.6412213740458,-45.0,212.5267175572519
-0.344482421875,-0.347412109375,-0.68798828125,-108.86259541984732,-46.11450381679389,210.61832061068702
0.191162109375,0.177001953125,-0.531982421875,-158.9236641221374,-46.23664122137404,171.93893129770993
0.4326171875,0.595458984375,-0.2177734375,-98.23664122137404,-50.900763358778626,122.30534351145039
0.67822265625,0.846923828125,0.3369140625,-88.82442748091603,-52.47328244274809,58.534351145038165
0.6533203125,0.9814453125,0.781494140625,-41.12977099236641,-54.69465648854962,14.122137404580153
0.359375,0.93505859375,1.139404296875,-23.396946564885496,-49.19083969465649,-36.091603053435115
0.2041015625,0.926025390625,0.9658203125,13.19083969465649,-41.63358778625954,-36.786259541984734
-0.266357421875,0.802001953125,0.778076171875,44.19847328244275,-37.79389312977099,-38.221374045801525
-0.36181640625,0.849365234375,0.238037109375,40.83969465648855,-37.412213740458014,-21.129770992366414
-0.533935546875,0.80615234375,0.26171875,18.580152671755727,-37.89312977099237,-8.007633587786259
-0.341796875,0.8916015625,0.158447265625,4.320610687022901,-40.404580152671755,-9.854961832061068
-0.349609375,0.814697265625,0.4296875,2.5267175572519083,-38.61068702290076,-15.534351145038167
-0.365478515625,0.8486328125,0.3251953125,23.908396946564885,-41.900763358778626,-22.85496183206107
-0.257568359375,0.828857421875,0.302734375,21.34351145038168,-40.099236641221374,-32.969465648854964
-0.3369140625,0.753173828125,0.3759765625,36.961832061068705,-41.030534351145036,-50.778625954198475
-0.387939453125,0.7548828125,0.248291015625,58.267175572519086,-42.961832061068705,-57.717557251908396
-0.462890625,0.75146484375,0.21337890625,43.29007633587786,-40.396946564885496,-54.847328244274806
-0.22509765625,0.716796875,0.25732421875,43.17557251908397,-39.221374045801525,-71.7557251908397
-0.20361328125,0.56640625,0.2041015625,75.36641221374046,-39.86259541984733,-99.83969465648855
0.046630859375,0.37158203125,0.1162109375,92.93129770992367,-38.18320610687023,-138.54961832061068
0.070556640625,0.173095703125,-0.10400390625,86.16030534351145,-33.30534351145038,-212.2290076335878
-0.4326171875,-0.232421875,0.03662109375,123.87022900763358,-33.00763358778626,-226.42748091603053
-0.759765625,-0.491943359375,-0.3564453125,143.1908396946565,-37.603053435114504,-246.67175572519085
-1.16796875,-0.6923828125,-0.1572265625,145.01526717557252,-51.6793893129771,-218.3587786259542
-0.73828125,-0.88623046875,-0.1865234375,55.11450381679389,-35.770992366412216,-240.83969465648855
-1.025634765625,-1.1748046875,0.08203125,88.9618320610687,-45.32824427480916,-220.85496183206106
-0.316162109375,-1.223388671875,-0.01171875,61.86259541984733,-40.6793893129771,250.0763358778626
-1.084716796875,-1.746337890625,0.095947265625,77.90839694656489,-40.83206106870229,-223.67175572519085
-0.589111328125,-1.568115234375,-0.06298828125,33.37404580152672,-34.045801526717554,-212.66412213740458
-0.8359375,-1.4033203125,-0.000732421875,12.770992366412214,-37.47328244274809,-160.35114503816794
-0.22802734375,-1.077880859375,-0.029296875,-26.625954198473284,-38.3587786259542,-79.48091603053435
-0.088623046875,-1.077880859375,0.1513671875,-35.29007633587786,-36.3587786259542,-89.93893129770993
-0.168701171875,-1.084716796875,-0.01171875,-6.854961832061068,-35.44274809160305,-68.80916030534351
-0.0234375,-1.048583984375,0.068115234375,-20.137404580152673,-36.3206106870229,-46.97709923664122
-0.00244140625,-1.03955078125,0.067626953125,-7.641221374045801,-38.038167938931295,-32.32824427480916
0.065185546875,-1.046875,0.1494140625,-14.488549618320612,-38.83206106870229,-22.19083969465649
0.027099609375,-0.998046875,0.0263671875,-1.251908396946565,-38.81679389312977,-8.526717557251908
0.13623046875,-0.970703125,0.07421875,-20.17557251908397,-38.091603053435115,1.7709923664122138
0.134521484375,-0.978515625,0.064697265625,-2.2900763358778624,-38.01526717557252,2.2977099236641223
0.177001953125,-0.958251953125,0.036376953125,-11.396946564885496,-38.51908396946565,3.5343511450381677
0.186279296875,-0.9921875,0.100341796875,-3.045801526717557,-38.80152671755725,3.450381679389313
0.204833984375,-0.950927734375,0.03173828125,-6.6106870229007635,-38.61068702290076,1.450381679389313
0.189453125,-0.962158203125,0.06005859375,-7.519083969465649,-39.19847328244275,3.6030534351145036
0.21484375,-0.9619140625,0.062744140625,-4.633587786259542,-39.48854961832061,-1.099236641221374
0.1796875,-0.966796875,0.040771484375,-11.297709923664122,-40.267175572519086,0.45038167938931295
0.183837890625,-0.9794921875,0.0947265625,-5.67175572519084,-39.732824427480914,-0.6412213740458015
0.1826171875,-0.96533203125,0.05517578125,-7.793893129770993,-39.82442748091603,-0.37404580152671757
0.175048828125,-0.9892578125,0.0830078125,-7.847328244274809,-39.44274809160305,2.0610687022900764
0.197265625,-0.9755859375,0.0791015625,-8.541984732824428,-39.16793893129771,-0.31297709923664124
0.2265625,-0.97265625,0.083740234375,-8.17557251908397,-39.458015267175576,0.030534351145038167
0.17578125,-0.9814453125,0.054443359375,-6.32824427480916,-39.58015267175573,-1.2671755725190839
0.175048828125,-0.975341796875,0.0556640625,-4.938931297709924,-39.68702290076336,-0.22900763358778625
0.202880859375,-0.964599609375,0.070068359375,-6.786259541984733,-39.404580152671755,-0.816793893129771
0.178955078125,-0.977294921875,0.06396484375,-3.6564885496183206,-39.38931297709924,-3.2442748091603053
0.1806640625,-0.970703125,0.03271484375,-9.038167938931299,-39.06870229007634,0.33587786259541985
0.17138671875,-0.976318359375,0.07421875,-4.679389312977099,-39.732824427480914,-2.4198473282442747
0.171630859375,-0.9765625,0.050048828125,-6.557251908396947,-39.00763358778626,-0.35877862595419846
0.173583984375,-0.9755859375,0.07421875,-4.633587786259542,-39.908396946564885,-1.6106870229007633
0.166259765625,-0.967041015625,0.06396484375,-6.267175572519084,-39.50381679389313,-0.3282442748091603
0.213134765625,-0.97509765625,0.062744140625,-8.427480916030534,-39.10687022900763,0.5038167938931297
0.168701171875,-0.970947265625,0.046142578125,-1.9694656488549618,-39.29007633587786,-2.381679389312977
0.19091796875,-0.97265625,0.060302734375,-10.312977099236642,-39.66412213740458,2.8396946564885495
0.2099609375,-0.96484375,0.06005859375,-4.580152671755725,-39.68702290076336,-1.8854961832061068
0.149658203125,-0.970947265625,0.040771484375,-7.854961832061068,-40.01526717557252,-0.5343511450381679
0.1943359375,-0.959228515625,0.06689453125,-6.595419847328245,-39.37404580152672,0.9923664122137404
0.16943359375,-0.968505859375,0.04833984375,-5.7251908396946565,-39.49618320610687,-1.9236641221374047
0.18603515625,-0.98193359375,0.064208984375,-6.916030534351145,-39.68702290076336,-0.7557251908396947
0.1767578125,-0.978271484375,0.040283203125,-6.6183206106870225,-39.70229007633588,-0.6412213740458015
0.210205078125,-0.962646484375,0.07177734375,-9.34351145038168,-39.20610687022901,0.5572519083969466
0.18603515625,-0.972412109375,0.057861328125,-4.633587786259542,-40.091603053435115,-2.351145038167939
0.162109375,-0.97265625,0.060791015625,-7.320610687022901,-39.80916030534351,0.7175572519083969
0.19677734375,-0.972900390625,0.072509765625,-6.137404580152672,-39.17557251908397,-1.0610687022900764
0.171875,-0.965087890625,0.042236328125,-7.259541984732825,-39.68702290076336,0.24427480916030533
0.1767578125,-0.965087890625,0.05712890625,-4.473282442748092,-39.83206106870229,-1.1297709923664123
0.18310546875,-0.967041015625,0.053466796875,-6.687022900763359,-40.045801526717554,-1.2748091603053435
0.18505859375,-0.966064453125,0.0419921875,-7.213740458015267,-39.86259541984733,-0.48854961832061067
0.16845703125,-0.976318359375,0.052734375,-5.687022900763359,-39.50381679389313,-1.9236641221374047
0.1796875,-0.966796875,0.055419921875,-9.099236641221374,-39.69465648854962,0.9236641221374046
0.202392578125,-0.977294921875,0.07080078125,-4.480916030534351,-38.99236641221374,-2.49618320610687
0.164306640625,-0.97607421875,0.053466796875,-7.129770992366412,-39.58015267175573,-2.2595419847328246
0.209716796875,-0.9833984375,0.06689453125,-7.877862595419847,-39.38167938931298,-0.29770992366412213
0.18115234375,-0.966552734375,0.0439453125,-5.717557251908397,-38.969465648854964,-0.5190839694656488
0.172119140625,-0.968505859375,0.043212890625,-7.312977099236641,-39.94656488549618,2.2748091603053435
0.204345703125,-0.977294921875,0.072998046875,-2.9083969465648853,-39.656488549618324,-3.3053435114503817
0.178955078125,-0.9765625,0.019775390625,-7.473282442748092,-39.0763358778626,0.8015267175572519
0.2060546875,-0.962158203125,0.062255859375,-6.183206106870229,-40.038167938931295,1.0
0.191650390625,-0.974365234375,0.048583984375,-7.633587786259542,-39.030534351145036,0.22900763358778625
0.194091796875,-0.977294921875,0.05615234375,-7.1679389312977095,-39.045801526717554,1.6030534351145038
0.19482421875,-0.970458984375,0.064697265625,-6.9541984732824424,-39.58015267175573,-2.0916030534351147
0.161865234375,-0.968505859375,0.031494140625,-7.198473282442748,-39.13740458015267,0.5877862595419847
0.197998046875,-0.969970703125,0.087158203125,-5.541984732824427,-39.458015267175576,-0.3893129770992366
0.186279296875,-0.968505859375,0.037841796875,-7.0534351145038165,-38.69465648854962,1.1374045801526718
0.191650390625,-0.977783203125,0.085205078125,-5.259541984732825,-39.85496183206107,0.4732824427480916
0.18994140625,-0.966552734375,0.05224609375,-5.114503816793893,-39.213740458015266,-2.2213740458015265
0.17626953125,-0.970947265625,0.047607421875,-5.656488549618321,-39.786259541984734,-0.6641221374045801
0.197509765625,-0.978515625,0.060302734375,-3.1603053435114505,-39.06870229007634,-3.213740458015267
0.2041015625,-0.976806640625,0.04931640625,-8.618320610687023,-39.595419847328245,0.8396946564885496
0.212158203125,-0.971923828125,0.074462890625,-3.3969465648854964,-39.74809160305343,-2.8091603053435112
0.18359375,-0.976806640625,0.076904296875,-4.938931297709924,-39.88549618320611,-2.3893129770992365
0.196533203125,-0.968017578125,0.07470703125,-3.9236641221374047,-40.18320610687023,-0.4961832061068702
0.21044921875,-0.970947265625,0.07177734375,-3.4122137404580153,-39.2442748091603,-1.4885496183206106
0.19482421875,-0.971923828125,0.06689453125,-0.20610687022900764,-39.17557251908397,-4.8396946564885495
0.175537109375,-0.969970703125,0.05908203125,-7.061068702290076,-39.30534351145038,-2.312977099236641
0.054931640625,-1.037841796875,0.036376953125,-0.648854961832061,-39.12977099236641,-0.7938931297709924
-0.138427734375,-1.06884765625,-0.007080078125,-24.213740458015266,-39.56488549618321,11.82442748091603
-0.509765625,-1.185302734375,-0.145751953125,-8.938931297709924,-42.16030534351145,56.541984732824424
-0.502197265625,-1.234130859375,-0.484619140625,-53.31297709923664,-43.3587786259542,85.80916030534351
-0.582763671875,-1.404296875,-0.8310546875,-75.48091603053435,-50.908396946564885,134.1145038167939
-0.576171875,-1.59375,-0.932373046875,-166.72519083969465,-46.87786259541985,174.9236641221374
-0.7099609375,-1.85400390625,-1.074462890625,-224.06870229007635,-40.79389312977099,205.90076335877862
-0.753173828125,-2.0,-1.227294921875,250.1145038167939,-36.83206106870229,249.87022900763358
-0.478759765625,-1.910888671875,-0.960693359375,250.1145038167939,-40.954198473282446,230.94656488549617
-0.56884765625,-1.87939453125,-0.775634765625,250.1145038167939,-47.87022900763359,214.23664122137404
-0.618408203125,-1.73828125,-0.685302734375,250.1145038167939,-48.045801526717554,221.44274809160305
-0.22998046875,-1.2333984375,-0.8017578125,250.1145038167939,-48.69465648854962,230.45801526717557
0.36279296875,-0.54296875,-0.351806640625,-245.66412213740458,-52.3206106870229,173.25190839694656
0.60986328125,0.177490234375,0.183349609375,-176.03053435114504,-54.916030534351144,106.41984732824427
0.5205078125,0.575927734375,0.5478515625,-91.83969465648855,-52.778625954198475,45.0
0.518798828125,0.8388671875,0.68212890625,-4.2748091603053435,-54.12213740458015,21.801526717557252
0.241943359375,0.91455078125,0.583984375,6.351145038167939,-46.61068702290076,5.732824427480916
0.004638671875,0.883544921875,0.6083984375,-0.8854961832061069,-44.79389312977099,-30.80916030534351
-0.34912109375,0.86865234375,0.546142578125,28.328244274809162,-42.961832061068705,-19.51145038167939
-0.35546875,0.847412109375,0.522705078125,32.87786259541985,-39.94656488549618,-17.427480916030536
-0.5205078125,0.900146484375,0.170166015625,26.87786259541985,-37.725190839694655,-0.3511450381679389
-0.47900390625,0.86279296875,0.213134765625,2.312977099236641,-40.221374045801525,-3.4732824427480917
-0.354736328125,0.90380859375,0.28662109375,8.099236641221374,-41.83969465648855,-1.5038167938931297
-0.408203125,0.836669921875,0.417236328125,8.435114503816793,-40.51145038167939,-12.16030534351145
-0.3173828125,0.87353515625,0.184814453125,28.15267175572519,-40.49618320610687,-14.80916030534351
-0.35205078125,0.813720703125,0.260986328125,30.282442748091604,-43.25190839694657,-26.64885496183206
-0.191162109375,0.81494140625,0.28564453125,33.954198473282446,-40.343511450381676,-32.64885496183206
-0.267333984375,0.701416015625,0.400146484375,75.35114503816794,-43.68702290076336,-64.14503816793894
-0.176025390625,0.67626953125,0.214111328125,77.61068702290076,-37.62595419847328,-73.02290076335878
-0.2841796875,0.56396484375,0.071044921875,101.77862595419847,-41.05343511450382,-97.00763358778626
-0.189453125,0.55029296875,-0.114990234375,83.16030534351145,-36.25954198473283,-131.31297709923663
-0.2216796875,0.30322265625,-0.037109375,100.12213740458016,-38.32824427480916,-151.40458015267177
-0.094970703125,0.025634765625,-0.22412109375,110.62595419847328,-36.282442748091604,-214.98473282442748
-0.171142578125,-0.46826171875,-0.19921875,117.57251908396947,-38.06870229007634,250.0763358778626
-0.596435546875,-0.804931640625,-0.19921875,118.08396946564885,-41.961832061068705,250.0763358778626
-0.986083984375,-1.228515625,-0.039794921875,135.5648854961832,-43.64885496183206,250.0763358778626
-1.0107421875,-1.306884765625,-0.198486328125,92.3587786259542,-47.81679389312977,250.0763358778626
-0.48974609375,-1.56689453125,0.12255859375,54.51145038167939,-37.74045801526717,250.0763358778626
-0.531494140625,-1.84423828125,0.04150390625,62.25190839694657,-34.14503816793893,250.0763358778626
-0.607666015625,-1.861328125,-0.20263671875,61.49618320610687,-33.74045801526717,-239.36641221374046
-0.763916015625,-1.54345703125,-0.247314453125,-0.31297709923664124,-38.11450381679389,-150.75572519083968
-0.421630859375,-1.205078125,-0.05029296875,-27.015267175572518,-40.56488549618321,-57.3206106870229
-0.042724609375,-0.9990234375,0.179443359375,-27.61832061068702,-38.93129770992366,-48.93893129770992
-0.10595703125,-1.034912109375,0.077392578125,-2.969465648854962,-36.595419847328245,-48.37404580152672
-0.1044921875,-1.077392578125,-0.050537109375,-4.1679389312977095,-34.89312977099237,-20.49618320610687
-0.003173828125,-1.040283203125,0.095703125,-24.083969465648856,-35.16030534351145,0.022900763358778626
0.126953125,-0.97412109375,0.0791015625,-8.916030534351146,-37.76335877862596,4.2748091603053435
0.17431640625,-0.968994140625,0.0654296875,-8.885496183206106,-38.13740458015267,8.793893129770993
0.197021484375,-0.955810546875,0.036376953125,-9.01526717557252,-38.61832061068702,11.610687022900763
0.22216796875,-0.96435546875,0.05419921875,-7.038167938931298,-39.25190839694657,2.4122137404580153
0.23876953125,-0.9443359375,0.009765625,-7.3893129770992365,-39.86259541984733,-0.09923664122137404
0.201416015625,-0.978271484375,0.060791015625,-12.358778625954198,-40.19847328244275,-4.526717557251908
0.19921875,-0.98388671875,0.104736328125,-5.244274809160306,-39.98473282442748,-7.412213740458015
0.205322265625,-0.974609375,0.072509765625,-14.778625954198473,-38.732824427480914,-1.8091603053435115
0.156494140625,-1.00048828125,0.10888671875,2.0381679389312977,-39.25190839694657,-10.435114503816793
0.19970703125,-0.979248046875,0.0224609375,-6.175572519083969,-39.83206106870229,-0.7251908396946565
0.2119140625,-0.97412109375,0.059326171875,-4.267175572519084,-38.961832061068705,-0.46564885496183206
0.186279296875,-0.957275390625,0.034423828125,-3.7557251908396947,-39.404580152671755,-4.633587786259542
0.171142578125,-0.97509765625,0.0439453125,-4.32824427480916,-39.64885496183206,-1.0534351145038168
0.229736328125,-0.962158203125,0.06689453125,-8.259541984732824,-38.87786259541985,-2.618320610687023
0.16650390625,-0.968505859375,-0.02197265625,-4.870229007633588,-39.343511450381676,-1.4427480916030535
0.212890625,-0.977783203125,0.1015625,-10.732824427480915,-39.56488549618321,-0.6335877862595419
0.1806640625,-0.95556640625,-0.00927734375,-3.954198473282443,-39.31297709923664,-1.465648854961832
0.200439453125,-0.97509765625,0.067138671875,-8.725190839694656,-39.80916030534351,-0.6564885496183206
0.188232421875,-0.962890625,0.0576171875,-4.022900763358779,-39.770992366412216,-2.122137404580153
0.218994140625,-0.9638671875,0.06298828125,-10.114503816793894,-39.74045801526717,0.29770992366412213
0.189697265625,-0.9658203125,0.046630859375,-2.9618320610687023,-39.091603053435115,-0.6717557251908397
0.20849609375,-0.9765625,0.066650390625,-6.282442748091603,-39.3206106870229,-2.7786259541984735
0.224365234375,-0.958984375,0.029541015625,-6.938931297709924,-39.52671755725191,-1.4045801526717556
0.19921875,-0.97265625,0.037109375,-4.213740458015267,-39.32824427480916,-1.5038167938931297
0.215576171875,-0.95849609375,0.050537109375,-10.076335877862595,-39.82442748091603,-1.2366412213740459
0.1884765625,-0.966552734375,0.04248046875,-3.877862595419847,-39.091603053435115,-1.9923664122137406
0.2021484375,-0.976318359375,0.046630859375,-10.664122137404581,-39.29007633587786,1.4351145038167938
0.221435546875,-0.966552734375,0.0673828125,-5.6106870229007635,-39.29007633587786,-2.2213740458015265
0.198486328125,-0.975830078125,0.048828125,-6.320610687022901,-39.63358778625954,-1.2442748091603053
0.214599609375,-0.952392578125,0.04931640625,-6.755725190839694,-39.38931297709924,1.0916030534351144
0.199462890625,-0.9677734375,0.06005859375,-3.801526717557252,-39.87022900763359,-2.4198473282442747
0.209228515625,-0.965576171875,0.03173828125,-7.603053435114504,-39.13740458015267,0.21374045801526717
0.2099609375,-0.96533203125,0.056396484375,-5.061068702290076,-38.82442748091603,-2.3282442748091605
0.2177734375,-0.96728515625,0.044677734375,-9.16793893129771,-40.14503816793893,-0.183206106870229
0.20458984375,-0.969482421875,0.04443359375,-4.236641221374046,-39.56488549618321,-0.4122137404580153
0.213623046875,-0.967041015625,0.053955078125,-9.755725190839694,-39.534351145038165,0.9007633587786259
0.216552734375,-0.97314453125,0.056884765625,-5.549618320610687,-39.35114503816794,-1.1908396946564885
0.204833984375,-0.97314453125,0.044921875,-7.190839694656488,-39.38167938931298,-0.32061068702290074
0.218994140625,-0.966552734375,0.043212890625,-7.473282442748092,-39.89312977099237,1.3435114503816794
0.222412109375,-0.9658203125,0.063720703125,-6.656488549618321,-39.0763358778626,0.5038167938931297
0.203369140625,-0.973876953125,0.0537109375,-4.717557251908397,-39.0763358778626,-2.2595419847328246
0.228759765625,-0.966064453125,0.070556640625,-8.17557251908397,-39.47328244274809,-0.9083969465648855
0.19189453125,-0.9609375,0.00927734375,-5.740458015267175,-39.656488549618324,0.11450381679389313
0.2109375,-0.961669921875,0.054443359375,-7.099236641221374,-39.786259541984734,1.7786259541984732
0.2177734375,-0.961669921875,0.05810546875,-6.870229007633588,-39.25190839694657,-0.08396946564885496
0.205078125,-0.97607421875,0.035400390625,-5.374045801526718,-39.48091603053435,0.6259541984732825
0.2255859375,-0.964111328125,0.070556640625,-7.251908396946565,-39.55725190839695,0.26717557251908397
0.204345703125,-0.965576171875,0.04248046875,-3.7404580152671754,-39.38931297709924,-1.0610687022900764
0.219482421875,-0.968505859375,0.081298828125,-8.465648854961833,-38.9236641221374,0.7786259541984732
0.226318359375,-0.969970703125,0.04150390625,-5.358778625954199,-39.6793893129771,-1.015267175572519
0.2265625,-0.966796875,0.06689453125,-6.923664122137405,-40.00763358778626,-1.6793893129770991
0.224609375,-0.960205078125,0.069091796875,-4.396946564885496,-39.6793893129771,-3.2519083969465647
0.179931640625,-0.974609375,0.033203125,-3.6259541984732824,-39.86259541984733,-2.732824427480916
0.239990234375,-0.976318359375,0.089111328125,-4.312977099236641,-39.50381679389313,-4.213740458015267
0.183837890625,-1.009033203125,-0.022705078125,-1.8473282442748091,-39.030534351145036,-4.816793893129771
0.0771484375,-1.01904296875,-0.03662109375,-11.045801526717558,-38.70992366412214,0.6564885496183206
-0.3173828125,-1.121826171875,-0.144775390625,-27.419847328244273,-41.45038167938932,42.05343511450382
-0.8828125,-1.38134765625,0.124755859375,9.15267175572519,-49.3587786259542,116.96946564885496
-1.203857421875,-1.681884765625,-0.2373046875,28.47328244274809,-57.49618320610687,197.06106870229007
-1.0166015625,-1.595947265625,-0.7216796875,-116.81679389312977,-33.52671755725191,216.22137404580153
-1.641357421875,-2.0,-0.97216796875,-182.8091603053435,-37.54961832061068,250.06106870229007
-0.8916015625,-2.0,-1.90576171875,250.1145038167939,-44.41984732824427,250.06106870229007
-0.6591796875,-2.0,-0.9638671875,250.1145038167939,-36.29007633587786,250.06106870229007
-0.726806640625,-2.0,-0.4599609375,250.1145038167939,-45.16030534351145,250.06106870229007
-0.528076171875,-1.852783203125,-0.2021484375,250.1145038167939,-52.86259541984733,250.06106870229007
-0.090576171875,-1.0087890625,-0.614013671875,-231.2824427480916,-49.47328244274809,250.06106870229007
0.715576171875,-0.2431640625,-0.531494140625,250.1145038167939,-42.770992366412216,184.24427480916032
1.177001953125,0.237060546875,0.620361328125,-148.85496183206106,-59.80152671755725,20.435114503816795
0.903564453125,0.49267578125,1.390625,8.580152671755725,-54.9236641221374,-26.045801526717558
0.506103515625,0.688720703125,0.90087890625,33.25954198473283,-47.29007633587786,-86.19083969465649
-0.10888671875,0.681396484375,0.810546875,101.09923664122137,-45.37404580152672,-66.09160305343511
-0.400146484375,0.675048828125,0.656494140625,74.54198473282443,-43.603053435114504,-83.6412213740458
-0.3095703125,0.687255859375,0.404541015625,135.86259541984734,-43.58015267175573,-42.17557251908397
-0.1435546875,0.66796875,0.330078125,98.21374045801527,-41.099236641221374,-95.36641221374046
-0.150634765625,0.465087890625,0.40771484375,163.76335877862596,-42.74045801526717,-95.86259541984732
0.11181640625,0.53369140625,-0.043701171875,138.09923664122138,-39.85496183206107,-168.59541984732823
-0.410888671875,0.171142578125,0.168701171875,180.68702290076337,-41.23664122137404,-186.94656488549617
-0.2392578125,0.188720703125,-0.640380859375,127.95419847328245,-37.045801526717554,-229.33587786259542
-0.5693359375,-0.28125,-0.151611328125,123.32824427480917,-40.83969465648855,-245.0916030534351
-0.7919921875,-0.41015625,-0.578125,65.00763358778626,-36.61068702290076,250.0763358778626
-0.879638671875,-0.634033203125,-0.322509765625,82.90076335877863,-36.36641221374046,-211.35114503816794
-1.0634765625,-0.96875,-0.069580078125,65.20610687022901,-39.51908396946565,-232.9236641221374
-0.563720703125,-0.971435546875,-0.43896484375,129.6946564885496,-45.93893129770992,-213.82442748091603
-0.646240234375,-1.382568359375,-0.00732421875,22.96946564885496,-37.48091603053435,250.0763358778626
-0.282470703125,-1.56787109375,-0.013671875,82.3206106870229,-43.343511450381676,250.0763358778626
-0.57275390625,-1.84423828125,-0.0830078125,47.23664122137404,-32.58015267175573,-238.06106870229007
-0.642333984375,-1.62548828125,-0.12548828125,49.900763358778626,-38.17557251908397,-170.87022900763358
-0.505126953125,-1.21630859375,-0.14501953125,-15.007633587786259,-35.10687022900763,-71.79389312977099
-0.05859375,-1.06640625,0.22607421875,-43.282442748091604,-36.213740458015266,-42.030534351145036
-0.021484375,-1.05224609375,0.16259765625,17.083969465648856,-39.9236641221374,-56.56488549618321
-0.02880859375,-1.023681640625,-0.04248046875,-0.6641221374045801,-35.99236641221374,-34.465648854961835
-0.03955078125,-1.0693359375,0.094482421875,-1.3358778625954197,-35.97709923664122,-25.46564885496183
0.027587890625,-0.99267578125,-0.02392578125,-4.351145038167939,-39.38167938931298,1.16793893129771
0.159912109375,-0.989990234375,0.123046875,-11.412213740458014,-38.01526717557252,1.381679389312977
0.157470703125,-0.944091796875,0.0205078125,-7.1679389312977095,-37.2442748091603,4.305343511450381
0.166259765625,-0.984619140625,0.063720703125,-7.67175572519084,-39.11450381679389,4.564885496183206
0.230712890625,-0.955078125,0.05810546875,-13.572519083969466,-39.89312977099237,6.030534351145038
0.2021484375,-0.947509765625,0.1083984375,-7.114503816793893,-39.770992366412216,3.450381679389313
0.199462890625,-0.95947265625,0.098876953125,-8.16793893129771,-39.717557251908396,2.4198473282442747
0.221923828125,-0.979248046875,0.095947265625,-5.8396946564885495,-40.541984732824424,1.4732824427480915
0.192626953125,-0.970947265625,0.072998046875,-4.412213740458015,-39.412213740458014,-1.7251908396946565
0.197509765625,-0.95361328125,0.07861328125,-5.908396946564886,-39.9236641221374,1.7557251908396947
0.2041015625,-0.96826171875,0.063232421875,-2.6412213740458017,-39.83206106870229,-2.3969465648854964
0.16552734375,-0.97998046875,0.0498046875,-8.091603053435115,-39.30534351145038,-0.25190839694656486
0.206298828125,-0.947021484375,0.05859375,-7.129770992366412,-39.66412213740458,2.6030534351145036
0.19970703125,-0.968017578125,0.084716796875,-8.01526717557252,-39.13740458015267,-1.3282442748091603
0.1767578125,-0.9638671875,0.060546875,-7.755725190839694,-39.83969465648855,0.9083969465648855
0.173583984375,-0.966064453125,0.095947265625,-7.732824427480916,-40.38167938931298,1.2748091603053435
0.190673828125,-0.961181640625,0.0615234375,-6.908396946564886,-39.19083969465649,2.1908396946564888
0.1875,-0.97314453125,0.09326171875,-5.3816793893129775,-39.70992366412214,-0.6412213740458015
0.193115234375,-0.964599609375,0.039794921875,-9.488549618320612,-39.55725190839695,2.564885496183206
0.184326171875,-0.978515625,0.0888671875,-2.5343511450381677,-40.091603053435115,-2.068702290076336
0.18212890625,-0.969482421875,0.0478515625,-8.786259541984732,-39.404580152671755,0.7786259541984732
0.210205078125,-0.9609375,0.086669921875,-6.526717557251908,-39.58015267175573,-0.7099236641221374
0.165283203125,-0.969970703125,0.057373046875,-5.2748091603053435,-40.25190839694657,-0.17557251908396945
0.228515625,-0.970458984375,0.081298828125,-7.854961832061068,-39.38167938931298,-1.0076335877862594
0.170654296875,-0.976806640625,0.06005859375,-4.870229007633588,-40.38931297709924,-1.8549618320610688
0.20849609375,-0.96630859375,0.080078125,-8.221374045801527,-39.68702290076336,1.2213740458015268
0.167236328125,-0.959228515625,0.042236328125,-5.129770992366412,-39.98473282442748,0.732824427480916
0.177001953125,-0.9736328125,0.075439453125,-8.687022900763358,-39.961832061068705,-1.1374045801526718
0.201171875,-0.966064453125,0.06591796875,-4.603053435114504,-39.282442748091604,-1.1603053435114503
0.180419921875,-0.975830078125,0.0771484375,-6.00763358778626,-39.221374045801525,-2.122137404580153
0.17138671875,-0.9716796875,0.044921875,-6.9465648854961835,-40.02290076335878,-1.183206106870229
0.207275390625,-0.967041015625,0.08984375,-4.099236641221374,-39.45038167938932,-2.0229007633587788
0.195556640625,-0.962646484375,0.04150390625,-9.183206106870228,-39.16793893129771,1.183206106870229
0.181884765625,-0.976318359375,0.092041015625,-3.50381679389313,-39.81679389312977,-3.099236641221374
0.173583984375,-0.9736328125,0.06591796875,-5.4961832061068705,-39.87022900763359,-0.9618320610687023
0.2177734375,-0.962158203125,0.071044921875,-7.229007633587786,-39.85496183206107,-1.3969465648854962
0.184326171875,-0.959716796875,0.036865234375,-5.1603053435114505,-39.63358778625954,-0.5419847328244275
0.189453125,-0.9775390625,0.072509765625,-6.603053435114504,-39.63358778625954,-1.3740458015267176
0.198974609375,-0.9677734375,0.064208984375,-6.427480916030534,-39.038167938931295,-2.4198473282442747
0.1767578125,-0.974609375,0.058349609375,-5.8320610687022905,-40.229007633587784,-1.3358778625954197
0.202880859375,-0.9697265625,0.096923828125,-6.66412213740458,-39.11450381679389,-3.4427480916030535
0.181884765625,-0.9716796875,0.0458984375,-8.312977099236642,-39.51145038167939,-0.183206106870229
0.193603515625,-0.9736328125,0.07080078125,-6.3816793893129775,-39.152671755725194,-0.9465648854961832
0.210205078125,-0.966064453125,0.072021484375,-8.816793893129772,-38.770992366412216,-1.297709923664122
0.18310546875,-0.95947265625,0.04150390625,-4.511450381679389,-39.56488549618321,-1.9465648854961832
0.212646484375,-0.965087890625,0.074462890625,-9.48091603053435,-39.55725190839695,0.5267175572519084
0.19775390625,-0.971435546875,0.05517578125,-6.091603053435114,-39.61832061068702,-1.3435114503816794
0.21630859375,-0.972412109375,0.089111328125,-7.442748091603053,-39.595419847328245,-1.618320610687023
0.1845703125,-0.96728515625,0.04931640625,-5.2748091603053435,-39.396946564885496,-0.7557251908396947
0.193359375,-0.98095703125,0.073974609375,-5.351145038167939,-40.25190839694657,-0.6335877862595419
0.20751953125,-0.95654296875,0.04931640625,-7.6106870229007635,-38.85496183206107,-0.08396946564885496
0.200927734375,-0.968017578125,0.064453125,-6.198473282442748,-39.587786259541986,-0.06870229007633588
0.205810546875,-0.98291015625,0.0712890625,-6.404580152671755,-39.88549618320611,-1.1526717557251909
0.22998046875,-0.966064453125,0.06005859375,-8.038167938931299,-39.48091603053435,-0.9847328244274809
0.200927734375,-0.973388671875,0.060302734375,-5.1679389312977095,-39.9236641221374,-2.030534351145038
0.193115234375,-0.97314453125,0.07080078125,-4.786259541984733,-39.3587786259542,-1.2061068702290076
0.190673828125,-0.96337890625,0.07470703125,-4.526717557251908,-39.969465648854964,-1.786259541984733
0.2177734375,-0.97705078125,0.098876953125,-3.6106870229007635,-39.229007633587784,-3.7022900763358777
0.208251953125,-0.973388671875,0.072509765625,-4.282442748091603,-39.32824427480916,-3.0229007633587788
0.21826171875,-0.96240234375,0.0615234375,-3.2442748091603053,-39.57251908396947,-1.1374045801526718
0.194091796875,-0.967041015625,0.06103515625,-0.9770992366412213,-39.64885496183206,-4.587786259541985
0.20947265625,-0.969482421875,0.068359375,-4.152671755725191,-39.717557251908396,-3.83206106870229
0.246826171875,-0.959716796875,0.069580078125,-6.32824427480916,-39.83969465648855,-2.3435114503816794
0.214599609375,-0.9609375,0.054443359375,-8.267175572519085,-40.0763358778626,-0.5114503816793893
0.220947265625,-0.948974609375,0.090087890625,-6.1603053435114505,-39.80916030534351,-2.50381679389313
0.188232421875,-0.969970703125,0.0693359375,-5.526717557251908,-39.961832061068705,-2.9236641221374047
0.228515625,-0.975830078125,0.10693359375,-3.7557251908396947,-39.70229007633588,-5.030534351145038
0.207275390625,-0.965576171875,0.0615234375,-9.335877862595419,-39.603053435114504,-0.9618320610687023
0.2490234375,-0.964111328125,0.096435546875,-5.9541984732824424,-39.3587786259542,0.21374045801526717
0.204833984375,-0.970947265625,0.072998046875,-7.977099236641221,-39.152671755725194,0.16793893129770993
0.22314453125,-0.97021484375,0.0830078125,-5.412213740458015,-40.33587786259542,-0.22137404580152673
0.234375,-0.961669921875,0.066650390625,-8.557251908396946,-39.213740458015266,0.4198473282442748
0.24462890625,-0.950439453125,0.078857421875,-8.48091603053435,-39.87022900763359,-1.0534351145038168
0.2197265625,-0.96923828125,0.0498046875,-6.251908396946565,-40.47328244274809,-1.0916030534351144
0.241455078125,-0.956787109375,0.106689453125,-6.778625954198473,-38.99236641221374,-3.3587786259541983
0.19873046875,-0.989990234375,0.06640625,-6.412213740458015,-40.030534351145036,-2.0
-0.12548828125,-1.17431640625,0.004150390625,-10.114503816793894,-39.3206106870229,10.145038167938932
-0.64501953125,-1.293701171875,-0.09130859375,-19.68702290076336,-41.267175572519086,56.69465648854962
-0.99755859375,-1.5234375,-0.228271484375,-22.48854961832061,-44.69465648854962,130.85496183206106
-1.25927734375,-1.9775390625,-1.089599609375,-91.40458015267176,-39.458015267175576,195.08396946564886
-0.90380859375,-2.0,-1.8544921875,250.1145038167939,-41.343511450381676,250.06106870229007
-0.570068359375,-2.0,-1.989501953125,250.1145038167939,-45.19847328244275,250.06106870229007
0.10107421875,-2.0,-1.023193359375,250.1145038167939,-47.30534351145038,250.06106870229007
-0.345947265625,-2.0,-0.17431640625,250.1145038167939,-50.93129770992366,250.06106870229007
-0.48876953125,-1.9228515625,-0.547119140625,250.1145038167939,-46.48091603053435,250.06106870229007
-0.10009765625,-1.298583984375,-0.767578125,250.1145038167939,-46.20610687022901,246.00763358778627
0.645263671875,-0.509033203125,-0.43994140625,250.1145038167939,-50.954198473282446,151.5801526717557
0.82763671875,0.110107421875,0.552734375,-177.41221374045801,-63.29770992366412,36.52671755725191
0.864501953125,0.641845703125,0.92724609375,-32.83969465648855,-59.43511450381679,-21.404580152671755
0.519287109375,0.782958984375,1.11181640625,27.709923664122137,-51.961832061068705,-39.61068702290076
0.27197265625,0.88037109375,0.79052734375,47.17557251908397,-47.20610687022901,-41.31297709923664
-0.059814453125,0.877197265625,0.691162109375,33.76335877862596,-41.44274809160305,-30.30534351145038
-0.094970703125,0.8779296875,0.443603515625,50.62595419847328,-40.41984732824427,-30.610687022900763
-0.39892578125,0.78369140625,0.5302734375,0.06870229007633588,-38.13740458015267,-11.236641221374045
-0.31298828125,0.8349609375,0.326904296875,33.57251908396947,-36.954198473282446,-2.1068702290076335
-0.260498046875,0.8330078125,0.360107421875,8.312977099236642,-38.43511450381679,-11.083969465648854
-0.116943359375,0.8583984375,0.423583984375,27.282442748091604,-39.25954198473283,-10.946564885496183
-0.197021484375,0.785888671875,0.4921875,48.16793893129771,-40.38931297709924,-50.030534351145036
-0.196044921875,0.810546875,0.36376953125,68.19083969465649,-37.86259541984733,-60.97709923664122
-0.406494140625,0.753662109375,0.224609375,90.26717557251908,-39.74045801526717,-71.83969465648855
-0.351318359375,0.765380859375,0.08642578125,93.90839694656489,-41.6412213740458,-80.18320610687023
-0.375,0.679443359375,0.014404296875,81.77862595419847,-39.038167938931295,-104.20610687022901
-0.488037109375,0.530029296875,-0.0390625,89.59541984732824,-41.58015267175573,-106.72519083969466
-0.493896484375,0.478759765625,-0.17724609375,61.908396946564885,-36.74045801526717,-138.58778625954199
-0.871826171875,0.25146484375,-0.037353515625,95.17557251908397,-44.14503816793893,-128.05343511450383
-0.662841796875,0.331298828125,-0.31396484375,61.63358778625954,-40.82442748091603,-142.49618320610688
-1.069091796875,-0.04345703125,0.091552734375,76.04580152671755,-42.786259541984734,-133.48091603053436
-0.666259765625,0.1044921875,-0.335205078125,33.93893129770992,-36.541984732824424,-138.58778625954199
-1.008544921875,-0.271240234375,0.09814453125,72.6793893129771,-42.57251908396947,-134.3740458015267
-0.717041015625,-0.283935546875,-0.251220703125,40.954198473282446,-37.51145038167939,-160.4885496183206
-0.818603515625,-0.47314453125,-0.15478515625,41.99236641221374,-38.717557251908396,-137.64885496183206
-0.888916015625,-0.697998046875,-0.10546875,20.49618320610687,-39.67175572519084,-166.42748091603053
-0.83203125,-0.741943359375,-0.10693359375,32.99236641221374,-40.66412213740458,-138.74045801526717
-0.626953125,-0.880615234375,0.008544921875,31.862595419847327,-40.47328244274809,-177.9770992366412
-0.65380859375,-1.065185546875,-0.011474609375,41.97709923664122,-35.786259541984734,-162.05343511450383
-0.498291015625,-1.20068359375,0.077392578125,60.17557251908397,-41.00763358778626,-174.8320610687023
-0.2998046875,-1.300537109375,-0.0595703125,55.20610687022901,-35.13740458015267,-169.14503816793894
-0.46435546875,-1.350830078125,-0.125,32.725190839694655,-33.52671755725191,-163.96946564885496
-0.589111328125,-1.296630859375,-0.0908203125,32.152671755725194,-39.916030534351144,-91.61068702290076
-0.3076171875,-1.109619140625,-0.091552734375,2.7938931297709924,-39.732824427480914,-43.80916030534351
-0.07861328125,-0.94677734375,0.09912109375,-25.114503816793892,-36.42748091603053,-36.732824427480914
-0.041259765625,-1.009033203125,0.152587890625,-4.3816793893129775,-35.969465648854964,-50.9236641221374
-0.090087890625,-1.032958984375,0.01904296875,2.954198473282443,-37.19847328244275,-43.87022900763359
-0.072509765625,-1.0419921875,0.11865234375,-12.80916030534351,-37.99236641221374,-25.48854961832061
-0.00244140625,-0.988525390625,0.05322265625,-1.6870229007633588,-39.2442748091603,-9.564885496183207
0.02783203125,-0.99853515625,0.12451171875,-11.610687022900763,-37.05343511450382,-8.358778625954198
0.09033203125,-0.982666015625,0.09033203125,-11.282442748091603,-37.36641221374046,-3.3740458015267176
0.0322265625,-1.00390625,0.072021484375,-6.572519083969466,-39.48091603053435,-2.9618320610687023
0.137451171875,-0.978759765625,0.133544921875,-14.587786259541986,-39.541984732824424,0.9007633587786259
0.17333984375,-0.994384765625,0.18701171875,-3.519083969465649,-39.01526717557252,-4.213740458015267
0.16259765625,-0.970703125,0.111572265625,-16.84732824427481,-39.267175572519086,4.67175572519084
0.145751953125,-0.978271484375,0.1552734375,-1.4122137404580153,-39.725190839694655,0.08396946564885496
0.130615234375,-0.9697265625,0.078125,-2.763358778625954,-39.11450381679389,0.5877862595419847
0.117431640625,-0.999755859375,0.153564453125,-10.114503816793894,-39.06106870229008,-0.9618320610687023
0.145263671875,-0.950927734375,0.03759765625,-1.8244274809160306,-39.48091603053435,0.08396946564885496
0.075439453125,-0.978515625,0.074462890625,-4.0,-39.770992366412216,1.1145038167938932
0.162109375,-0.970703125,0.103271484375,-11.351145038167939,-38.93129770992366,0.5877862595419847
0.09130859375,-0.9931640625,0.066650390625,-3.6946564885496183,-40.16030534351145,-0.2595419847328244
0.146728515625,-0.97021484375,0.1123046875,-14.51908396946565,-39.786259541984734,4.015267175572519
0.114013671875,-0.967529296875,0.104248046875,-4.908396946564886,-40.20610687022901,1.2442748091603053
0.17138671875,-0.97119140625,0.12109375,-11.877862595419847,-40.16793893129771,1.1145038167938932
0.138427734375,-0.97802734375,0.09326171875,-4.595419847328245,-39.267175572519086,1.0229007633587786
0.142578125,-0.975830078125,0.119384765625,-10.16030534351145,-39.3206106870229,0.3435114503816794
0.1337890625,-0.9814453125,0.111572265625,-2.5572519083969465,-39.56488549618321,-4.412213740458015
0.11083984375,-0.970947265625,0.068603515625,-9.854961832061068,-38.94656488549618,1.5267175572519085
0.141845703125,-0.983154296875,0.137451171875,-6.297709923664122,-38.61068702290076,-2.4580152671755724
0.10986328125,-0.985107421875,0.08642578125,-5.961832061068702,-39.3206106870229,-2.946564885496183
0.132080078125,-0.98291015625,0.1103515625,-6.5038167938931295,-39.20610687022901,-1.9083969465648856
0.128173828125,-0.986572265625,0.072265625,-7.33587786259542,-39.38167938931298,-1.8549618320610688
0.1240234375,-0.98974609375,0.141845703125,-4.2748091603053435,-39.534351145038165,-4.702290076335878
0.11181640625,-0.983642578125,0.0400390625,-8.17557251908397,-39.3206106870229,-1.3206106870229009
0.13916015625,-0.9765625,0.14208984375,-2.66412213740458,-39.57251908396947,-4.511450381679389
0.105224609375,-0.98681640625,0.06005859375,-7.305343511450381,-39.083969465648856,-1.5190839694656488
0.13330078125,-0.98193359375,0.122314453125,-5.0458015267175576,-39.778625954198475,-4.717557251908397
0.104736328125,-0.9609375,0.05224609375,-8.549618320610687,-39.51908396946565,-1.0763358778625953
0.135498046875,-0.971435546875,0.09375,-8.236641221374045,-39.908396946564885,1.1908396946564885
0.14306640625,-0.975830078125,0.079833984375,-6.320610687022901,-39.229007633587784,-2.2519083969465647
0.124755859375,-0.97265625,0.0771484375,-5.916030534351145,-39.66412213740458,-2.145038167938931
0.12158203125,-0.987060546875,0.0859375,-4.488549618320611,-39.9236641221374,-1.6717557251908397
0.160400390625,-0.979248046875,0.099365234375,-10.587786259541986,-39.412213740458014,-0.3511450381679389
0.128662109375,-0.972900390625,0.078369140625,-2.7099236641221376,-39.282442748091604,-2.198473282442748
0.12548828125,-0.974365234375,0.084716796875,-8.564885496183207,-38.74809160305343,0.061068702290076333
0.147216796875,-0.985107421875,0.114990234375,-4.603053435114504,-39.48854961832061,-2.519083969465649
0.1533203125,-0.9794921875,0.098876953125,-5.870229007633588,-39.69465648854962,-2.480916030534351
0.161865234375,-0.978271484375,0.10498046875,-3.4580152671755724,-39.70229007633588,-4.091603053435114
0.129638671875,-0.972412109375,0.0595703125,-4.977099236641221,-39.603053435114504,-0.6564885496183206
0.158203125,-0.974365234375,0.106689453125,-4.587786259541985,-39.83206106870229,-3.381679389312977
0.145263671875,-0.97607421875,0.076904296875,-4.412213740458015,-39.45038167938932,-3.6259541984732824
0.145751953125,-0.968994140625,0.0693359375,-5.427480916030534,-39.52671755725191,-2.3893129770992365
0.142578125,-0.976806640625,0.082763671875,-7.480916030534351,-39.70992366412214,-0.7557251908396947
0.152099609375,-0.965576171875,0.10986328125,-6.412213740458015,-39.80916030534351,-2.931297709923664
0.15234375,-0.9833984375,0.110107421875,-6.442748091603053,-39.969465648854964,-1.1068702290076335
0.1611328125,-0.986328125,0.1044921875,-4.755725190839694,-39.20610687022901,-1.7709923664122138
0.163330078125,-0.978515625,0.12060546875,-4.969465648854962,-39.47328244274809,-2.6717557251908395
0.1669921875,-0.960205078125,0.07177734375,-5.7251908396946565,-39.656488549618324,-0.7938931297709924
0.164794921875,-0.95751953125,0.098388671875,-4.534351145038168,-38.969465648854964,-1.7557251908396947
0.162353515625,-0.9609375,0.0810546875,-4.7251908396946565,-40.19847328244275,-2.1297709923664123
0.16943359375,-0.96728515625,0.0751953125,-7.519083969465649,-39.43511450381679,-1.1145038167938932
0.17236328125,-0.97216796875,0.1162109375,-6.358778625954199,-39.63358778625954,-2.2900763358778624
0.151611328125,-0.978515625,0.087646484375,-7.1603053435114505,-39.908396946564885,-1.3282442748091603
0.192626953125,-0.971435546875,0.141357421875,-5.473282442748092,-39.58015267175573,-4.229007633587786
0.15380859375,-0.969970703125,0.089111328125,-9.320610687022901,-39.80916030534351,-1.83206106870229
0.15673828125,-0.990966796875,0.126953125,-7.290076335877862,-40.0763358778626,0.7862595419847328
0.181396484375,-0.96728515625,0.10888671875,-6.435114503816794,-39.29770992366412,-0.9694656488549618
0.15673828125,-0.96923828125,0.09814453125,-6.717557251908397,-39.06870229007634,-1.6946564885496183
0.1572265625,-0.971923828125,0.089111328125,-4.641221374045801,-39.465648854961835,0.6870229007633588
0.177490234375,-0.964599609375,0.1025390625,-7.9541984732824424,-39.58015267175573,-1.366412213740458
0.049072265625,-1.03466796875,0.072021484375,-4.534351145038168,-39.847328244274806,0.4198473282442748
-0.205078125,-1.115478515625,0.027099609375,-11.893129770992367,-40.54961832061068,10.51908396946565
-0.638671875,-1.21923828125,-0.10107421875,-3.801526717557252,-44.52671755725191,45.587786259541986
-0.93505859375,-1.382080078125,-0.377685546875,-30.954198473282442,-43.458015267175576,122.79389312977099
-0.936279296875,-1.638916015625,-0.74169921875,-85.9618320610687,-42.25190839694657,188.58778625954199
-0.958740234375,-2.0,-1.1796875,-186.4351145038168,-38.786259541984734,244.38167938931298
-0.971435546875,-2.0,-1.408203125,250.1145038167939,-34.29770992366412,250.06106870229007
-0.322265625,-2.0,-1.046630859375,250.1145038167939,-38.80152671755725,250.06106870229007
-0.42431640625,-2.0,-0.344970703125,250.1145038167939,-40.98473282442748,250.06106870229007
-0.291259765625,-1.554443359375,-0.5439453125,250.1145038167939,-46.29770992366412,234.25954198473283
-0.059326171875,-0.980712890625,-0.1123046875,250.1145038167939,-54.091603053435115,177.2824427480916
0.1162109375,-0.32080078125,-0.242919921875,-214.53435114503816,-48.05343511450382,136.25954198473283
0.1357421875,0.0244140625,0.0615234375,-172.9618320610687,-52.56488549618321,90.63358778625954
0.214111328125,0.406982421875,0.370849609375,-67.99236641221374,-55.93893129770992,68.49618320610686
0.27197265625,0.642822265625,0.660888671875,-4.473282442748092,-55.534351145038165,38.93893129770992
0.452392578125,0.997802734375,0.367431640625,11.679389312977099,-51.80152671755725,15.122137404580153
0.3359375,1.0224609375,0.729736328125,31.396946564885496,-47.343511450381676,-7.297709923664122
0.275146484375,1.06640625,0.564453125,9.15267175572519,-44.00763358778626,-43.083969465648856
-0.12158203125,0.916748046875,0.68505859375,28.65648854961832,-39.86259541984733,-43.48854961832061
-0.293701171875,0.8984375,0.31103515625,39.19847328244275,-36.74045801526717,-46.603053435114504
-0.401123046875,0.851318359375,0.179931640625,24.213740458015266,-37.66412213740458,-27.572519083969464
-0.343994140625,0.841064453125,0.177001953125,5.778625954198473,-37.82442748091603,-35.6793893129771
-0.44287109375,0.775146484375,0.31689453125,33.64885496183206,-40.55725190839695,-28.442748091603054
-0.25048828125,0.843994140625,0.150390625,16.221374045801525,-36.70992366412214,-43.44274809160305
-0.5009765625,0.733154296875,0.22265625,47.80152671755725,-38.61068702290076,-44.725190839694655
-0.37353515625,0.80322265625,0.0654296875,44.847328244274806,-40.35114503816794,-53.3587786259542
-0.572998046875,0.72607421875,0.177734375,54.14503816793893,-40.42748091603053,-55.267175572519086
-0.345458984375,0.746337890625,0.064697265625,55.41984732824427,-38.93129770992366,-63.58015267175573
-0.556884765625,0.589111328125,0.158203125,75.43511450381679,-38.42748091603053,-79.50381679389314
-0.35791015625,0.622314453125,-0.152587890625,81.58015267175573,-38.0,-91.86259541984732
-0.648193359375,0.37890625,0.057373046875,79.16030534351145,-36.152671755725194,-104.38931297709924
-0.47412109375,0.302978515625,-0.258056640625,117.50381679389314,-38.55725190839695,-123.52671755725191
-0.795166015625,0.13671875,-0.24365234375,82.06870229007633,-36.57251908396947,-134.00763358778627
-0.6357421875,0.039306640625,-0.4091796875,124.93893129770993,-43.0763358778626,-140.29007633587787
-0.935302734375,-0.20166015625,-0.314208984375,55.64885496183206,-36.152671755725194,-156.0229007633588
-0.8330078125,-0.307861328125,-0.283447265625,101.62595419847328,-44.16793893129771,-144.40458015267177
-0.882080078125,-0.474853515625,-0.318603515625,77.0381679389313,-41.93893129770992,-157.65648854961833
-0.83935546875,-0.606689453125,-0.271484375,62.79389312977099,-41.534351145038165,-148.70992366412213
-0.8603515625,-0.802490234375,-0.135498046875,54.49618320610687,-40.44274809160305,-154.29007633587787
-0.871826171875,-0.88134765625,0.0400390625,47.274809160305345,-42.87786259541985,-138.94656488549617
-0.471435546875,-0.968994140625,-0.09326171875,66.06870229007633,-41.412213740458014,-150.34351145038167
-0.450439453125,-1.155517578125,-0.097900390625,29.49618320610687,-33.82442748091603,-165.96946564885496
-0.715576171875,-1.319091796875,0.073486328125,49.83206106870229,-40.70992366412214,-147.0763358778626
-0.3671875,-1.21337890625,-0.06640625,40.961832061068705,-40.70229007633588,-120.06870229007633
-0.42578125,-1.188232421875,-0.034423828125,15.786259541984732,-39.12213740458015,-109.62595419847328
-0.385009765625,-1.137451171875,0.011474609375,-0.4732824427480916,-40.7557251908397,-66.80916030534351
-0.07470703125,-0.98291015625,0.04296875,-12.473282442748092,-38.97709923664122,-46.29007633587786
-0.058349609375,-1.0126953125,0.208251953125,-5.641221374045801,-38.85496183206107,-62.587786259541986
-0.017333984375,-1.01123046875,0.062255859375,19.16030534351145,-39.11450381679389,-51.908396946564885
-0.078857421875,-1.07177734375,0.093505859375,7.908396946564886,-37.36641221374046,-49.83969465648855
-0.031982421875,-1.039306640625,0.044677734375,-5.770992366412214,-38.70229007633588,-19.65648854961832
-0.02294921875,-1.02490234375,0.1162109375,1.9694656488549618,-40.6793893129771,-14.870229007633588
0.07080078125,-0.9853515625,0.082275390625,-14.083969465648854,-38.29007633587786,-3.0
0.106689453125,-0.97705078125,0.115966796875,-8.49618320610687,-38.05343511450382,-1.9923664122137406
0.09765625,-0.9638671875,0.060791015625,-12.435114503816793,-38.81679389312977,3.427480916030534
0.15869140625,-0.975341796875,0.108154296875,-12.84732824427481,-39.770992366412216,2.33587786259542
0.177001953125,-0.9580078125,0.09228515625,-15.572519083969466,-38.70229007633588,-2.2061068702290076
0.161376953125,-0.970947265625,0.088134765625,-7.99236641221374,-40.534351145038165,-4.99236641221374
0.181640625,-0.973876953125,0.158447265625,-9.473282442748092,-41.404580152671755,-9.755725190839694
0.12158203125,-0.983154296875,0.089599609375,-2.519083969465649,-40.54961832061068,-4.1603053435114505
0.150390625,-0.99658203125,0.1650390625,-14.702290076335878,-39.76335877862596,-0.9236641221374046
0.162841796875,-0.98095703125,0.138427734375,-3.015267175572519,-39.50381679389313,-2.8625954198473282
0.173828125,-0.96923828125,0.10546875,-10.526717557251908,-39.7557251908397,0.732824427480916
0.18701171875,-0.976806640625,0.107421875,-4.526717557251908,-39.458015267175576,2.213740458015267
0.123291015625,-0.970703125,0.037353515625,-8.122137404580153,-39.29007633587786,3.2519083969465647
0.16064453125,-0.952392578125,0.078857421875,-8.969465648854962,-40.06870229007634,3.801526717557252
0.1875,-0.94921875,0.069580078125,-8.038167938931299,-39.19083969465649,0.022900763358778626
0.151123046875,-0.978515625,0.080078125,-8.389312977099237,-39.7557251908397,-0.015267175572519083
0.156005859375,-0.979248046875,0.103759765625,-8.732824427480915,-40.31297709923664,-1.0610687022900764
0.1552734375,-0.98291015625,0.1123046875,-3.267175572519084,-39.786259541984734,-0.3969465648854962
0.131103515625,-0.9765625,0.115234375,-5.6106870229007635,-39.70992366412214,-3.4198473282442747
0.150634765625,-0.960693359375,0.0693359375,-4.3816793893129775,-39.29007633587786,-0.5572519083969466
0.13427734375,-0.982421875,0.083984375,-5.343511450381679,-39.25954198473283,-0.8396946564885496
0.141845703125,-0.9677734375,0.09228515625,-7.648854961832061,-39.47328244274809,-0.05343511450381679
0.143798828125,-0.97265625,0.092529296875,-3.954198473282443,-39.68702290076336,-1.1755725190839694
0.174072265625,-0.963134765625,0.08837890625,-11.51908396946565,-39.37404580152672,0.7633587786259542
0.14892578125,-0.9736328125,0.087890625,-4.366412213740458,-39.32824427480916,0.5801526717557252
0.175048828125,-0.96875,0.10791015625,-8.038167938931299,-39.70229007633588,-0.9694656488549618
0.142578125,-0.97314453125,0.05419921875,-6.1679389312977095,-39.770992366412216,-0.17557251908396945
0.1728515625,-0.9677734375,0.105224609375,-8.549618320610687,-40.43511450381679,3.3740458015267176
0.1611328125,-0.96630859375,0.093505859375,-4.519083969465649,-39.656488549618324,-0.7938931297709924
0.15966796875,-0.973876953125,0.09619140625,-8.969465648854962,-40.229007633587784,-0.03816793893129771
0.157470703125,-0.97314453125,0.0966796875,-4.1679389312977095,-39.35114503816794,-0.0916030534351145
0.126708984375,-0.98291015625,0.077880859375,-4.870229007633588,-39.267175572519086,-2.572519083969466
0.177001953125,-0.96142578125,0.08203125,-9.633587786259541,-39.67175572519084,3.9160305343511452
0.1376953125,-0.979248046875,0.091552734375,-0.3511450381679389,-39.786259541984734,-4.8320610687022905
0.146484375,-0.981201171875,0.084716796875,-10.916030534351146,-39.70229007633588,2.4885496183206106
0.16748046875,-0.9736328125,0.110595703125,-1.3358778625954197,-39.45038167938932,-3.595419847328244
0.12353515625,-0.97314453125,0.08544921875,-8.67175572519084,-39.62595419847328,-0.2824427480916031
0.172119140625,-0.97412109375,0.1142578125,-3.351145038167939,-39.93129770992366,-1.3740458015267176
0.13623046875,-0.986572265625,0.089599609375,-5.67175572519084,-39.030534351145036,-4.076335877862595
0.156494140625,-0.970703125,0.081298828125,-7.32824427480916,-40.17557251908397,1.1221374045801527
0.1669921875,-0.963134765625,0.10546875,-4.32824427480916,-39.778625954198475,-2.83206106870229
0.12646484375,-0.976806640625,0.063720703125,-7.068702290076335,-39.68702290076336,0.0
0.178466796875,-0.9677734375,0.10986328125,-4.450381679389313,-39.74045801526717,-2.1526717557251906
0.136962890625,-0.9775390625,0.054931640625,-8.183206106870228,-39.45038167938932,0.7862595419847328
0.168701171875,-0.965576171875,0.1123046875,-5.656488549618321,-39.29007633587786,-1.2595419847328244
0.14990234375,-0.976318359375,0.075439453125,-7.488549618320611,-39.595419847328245,-1.2061068702290076
0.131103515625,-0.9833984375,0.09814453125,-2.0076335877862594,-40.36641221374046,-3.8702290076335877
0.156982421875,-0.96875,0.08056640625,-11.267175572519085,-39.01526717557252,2.900763358778626
0.155517578125,-0.970703125,0.115966796875,-2.2519083969465647,-39.25190839694657,-5.259541984732825
0.1796875,-0.9580078125,0.057373046875,-13.15267175572519,-39.41984732824427,2.480916030534351
0.175537109375,-0.96923828125,0.093017578125,-2.618320610687023,-39.786259541984734,-5.099236641221374
0.162353515625,-0.963623046875,0.095703125,-9.648854961832061,-38.93129770992366,-2.3587786259541983
0.1904296875,-0.966064453125,0.066162109375,-11.801526717557252,-39.412213740458014,-1.9770992366412214
0.162841796875,-0.99462890625,0.1484375,-4.015267175572519,-40.3206106870229,-8.16793893129771
0.153076171875,-0.98828125,0.056396484375,-7.595419847328245,-39.083969465648856,-2.50381679389313
0.221923828125,-0.986572265625,0.128662109375,-6.076335877862595,-38.396946564885496,-3.648854961832061
0.149169921875,-0.97705078125,0.0498046875,-7.847328244274809,-37.82442748091603,-1.0610687022900764
0.208984375,-0.971435546875,0.139404296875,-8.122137404580153,-38.70992366412214,-2.9160305343511452
0.17333984375,-0.966796875,0.0888671875,-2.3893129770992365,-38.83206106870229,-7.32824427480916
0.210693359375,-0.9541015625,0.125,-5.809160305343512,-38.786259541984734,-5.297709923664122
0.1611328125,-0.9697265625,0.069580078125,3.3969465648854964,-38.37404580152672,-11.580152671755725
0.177978515625,-0.979248046875,0.0927734375,-6.900763358778626,-38.45038167938932,-6.900763358778626
0.19140625,-0.95361328125,0.10107421875,0.007633587786259542,-39.83206106870229,-10.725190839694656
0.163330078125,-0.960205078125,0.069091796875,-4.8320610687022905,-39.12977099236641,-7.732824427480916
0.217041015625,-0.96142578125,0.119140625,-5.633587786259542,-39.38931297709924,-8.916030534351146
0.186279296875,-0.971435546875,0.076171875,-5.740458015267175,-39.57251908396947,-9.305343511450381
0.214599609375,-0.9404296875,0.13427734375,-8.206106870229007,-39.70229007633588,-7.351145038167939
0.202392578125,-0.952880859375,0.100830078125,-7.625954198473282,-39.16793893129771,-6.656488549618321
0.224853515625,-0.967041015625,0.1435546875,-7.511450381679389,-39.961832061068705,-4.99236641221374
0.209228515625,-0.956787109375,0.09814453125,-5.633587786259542,-38.908396946564885,-5.091603053435114
0.210205078125,-0.95849609375,0.121826171875,-8.954198473282442,-39.091603053435115,-1.5190839694656488
0.225341796875,-0.961181640625,0.10400390625,-4.33587786259542,-38.770992366412216,-3.267175572519084
0.2216796875,-0.960693359375,0.095947265625,-10.610687022900763,-39.52671755725191,1.816793893129771
0.26904296875,-0.940185546875,0.123291015625,-5.938931297709924,-39.2442748091603,-0.5267175572519084
0.273193359375,-0.935302734375,0.108642578125,-8.778625954198473,-39.62595419847328,-4.351145038167939
0.258544921875,-0.950439453125,0.080322265625,-5.9465648854961835,-39.66412213740458,-7.015267175572519
0.302978515625,-0.959228515625,0.1328125,-5.091603053435114,-39.63358778625954,-11.038167938931299
0.23828125,-0.953369140625,0.076904296875,-4.488549618320611,-40.29770992366412,-9.305343511450381
0.236083984375,-0.98046875,0.11181640625,-5.847328244274809,-39.7557251908397,-3.854961832061069
0.26513671875,-0.948974609375,0.134765625,-10.755725190839694,-39.458015267175576,-1.0
0.276611328125,-0.955078125,0.126708984375,-4.251908396946565,-39.82442748091603,-2.0610687022900764
0.28076171875,-0.929443359375,0.10400390625,-5.687022900763359,-39.0,-4.396946564885496
0.298828125,-0.94091796875,0.100830078125,-5.5038167938931295,-39.79389312977099,-4.450381679389313
0.27880859375,-0.939453125,0.08544921875,-7.022900763358779,-39.79389312977099,-2.519083969465649
0.2802734375,-0.9404296875,0.0810546875,-7.290076335877862,-39.54961832061068,-4.0458015267175576
0.298095703125,-0.941650390625,0.1181640625,-11.488549618320612,-39.67175572519084,-1.8549618320610688
0.289794921875,-0.951904296875,0.10400390625,-5.770992366412214,-39.45038167938932,-4.236641221374046
0.299072265625,-0.95458984375,0.12841796875,-11.030534351145038,-39.51908396946565,-1.618320610687023
0.294189453125,-0.9423828125,0.11767578125,-3.312977099236641,-39.69465648854962,-3.6030534351145036
0.27587890625,-0.935546875,0.078369140625,-11.274809160305344,-39.64885496183206,1.5572519083969465
0.293212890625,-0.938232421875,0.112548828125,-3.9618320610687023,-39.595419847328245,-2.0076335877862594
0.274658203125,-0.955810546875,0.0859375,-9.908396946564885,-39.45038167938932,0.5725190839694656
0.3046875,-0.93994140625,0.10205078125,-5.809160305343512,-39.89312977099237,-1.786259541984733
0.28564453125,-0.944091796875,0.098388671875,-6.5038167938931295,-39.64885496183206,-2.6946564885496183
0.2939453125,-0.94091796875,0.083251953125,-7.305343511450381,-38.916030534351144,-0.11450381679389313
0.286376953125,-0.935546875,0.08349609375,-8.091603053435115,-39.50381679389313,-0.6259541984732825
0.283447265625,-0.953125,0.1259765625,-7.931297709923665,-39.68702290076336,-0.07633587786259542
